Folder: data_diffn_crystals/data

Note: readme.md
### Some notebooks and python files for data/diffraction/crystals session

You will need: 

numpy
pandas
matplotlib
pymatgen

All can be installed using conda (I think):

`conda install numpy`

etc.

pymatgen might be need to be installed from conda-forge. Maybe like this:

`conda install conda-forge::pymatgen`

If you're running it in a notebook, you can put this in a cell and run it (fingers crossed):


`!conda install -y numpy`

File: SrTiO3_CollCode23076_gn.xye
2theta	Intensity	y_error
20.0	-0.127425	0.0
20.34	-0.163526	0.0
20.68	-0.087958	0.0
21.02	-0.178048	0.0
21.36	-0.244632	0.0
21.7	-0.0518392	0.0
22.04	-0.0847067	0.0
22.38	0.0147782	0.0
22.72	0.634754	0.0
23.06	-0.170363	0.0
23.4	0.0173	0.0
23.74	0.127883	0.0
24.08	-0.0472261	0.0
24.42	-0.236098	0.0
24.76	-0.0777326	0.0
25.1	-0.0338718	0.0
25.44	0.0297584	0.0
25.78	-0.247064	0.0
26.12	-0.0736332	0.0
26.46	0.223806	0.0
26.8	-0.0105703	0.0
27.14	-0.00334332	0.0
27.48	-0.0576461	0.0
27.82	-0.148244	0.0
28.16	-0.245229	0.0
28.5	-0.0515681	0.0
28.84	-0.192926	0.0
29.18	-0.0515262	0.0
29.52	0.196852	0.0
29.86	0.215181	0.0
30.2	0.0952478	0.0
30.54	0.0760804	0.0
30.88	0.114885	0.0
31.22	-0.216872	0.0
31.56	-0.0751064	0.0
31.9	0.350065	0.0
32.24	1.1115	0.0
32.58	0.684399	0.0
32.92	0.12678	0.0
33.26	-0.290499	0.0
33.6	-0.31008	0.0
33.94	0.175583	0.0
34.28	0.0786334	0.0
34.62	0.371952	0.0
34.96	0.1205	0.0
35.3	-0.119882	0.0
35.64	0.119631	0.0
35.98	0.289709	0.0
36.32	0.120118	0.0
36.66	-0.0025325	0.0
37.0	-0.0802215	0.0
37.34	0.138821	0.0
37.68	-0.176354	0.0
38.02	-0.0962033	0.0
38.36	0.234763	0.0
38.7	0.325483	0.0
39.04	0.332594	0.0
39.38	-0.0192817	0.0
39.72	0.0743325	0.0
40.06	0.782793	0.0
40.4	-0.141554	0.0
40.74	0.0986467	0.0
41.08	0.0796744	0.0
41.42	-0.0477811	0.0
41.76	-0.0718578	0.0
42.1	0.0895791	0.0
42.44	0.103635	0.0
42.78	-0.330489	0.0
43.12	0.0328353	0.0
43.46	-0.0888436	0.0
43.8	0.0699822	0.0
44.14	-0.130629	0.0
44.48	-0.407006	0.0
44.82	0.0427877	0.0
45.16	0.0301095	0.0
45.5	0.186413	0.0
45.84	0.0607568	0.0
46.18	0.201445	0.0
46.52	6.90978	0.0
46.86	0.255859	0.0
47.2	-0.145716	0.0
47.54	-0.345924	0.0
47.88	0.103186	0.0
48.22	-0.305558	0.0
48.56	-0.116711	0.0
48.9	0.120408	0.0
49.24	0.0941439	0.0
49.58	-0.348569	0.0
49.92	0.124889	0.0
50.26	-0.0457949	0.0
50.6	0.266568	0.0
50.94	-0.1841	0.0
51.28	0.149549	0.0
51.62	-0.0170782	0.0
51.96	0.0216249	0.0
52.3	0.64577	0.0
52.64	-0.0386903	0.0
52.98	0.0559373	0.0
53.32	0.112249	0.0
53.66	0.20138	0.0
54.0	-0.0667109	0.0
54.34	0.0683482	0.0
54.68	0.167597	0.0
55.02	-0.228013	0.0
55.36	-0.258092	0.0
55.7	-0.0219841	0.0
56.04	0.568738	0.0
56.38	-0.040324	0.0
56.72	-0.331142	0.0
57.06	-0.0214035	0.0
57.4	0.0591898	0.0
57.74	7.81728	0.0
58.08	0.485105	0.0
58.42	-0.218788	0.0
58.76	-0.101882	0.0
59.1	0.168866	0.0
59.44	0.104177	0.0
59.78	-0.0835389	0.0
60.12	-0.334754	0.0
60.46	-0.0040084	0.0
60.8	0.233713	0.0
61.14	0.190929	0.0
61.48	-0.0968696	0.0
61.82	-0.145194	0.0
62.16	0.0141629	0.0
62.5	0.186956	0.0
62.84	0.105419	0.0
63.18	-0.0333591	0.0
63.52	-0.0499215	0.0
63.86	0.199991	0.0
64.2	0.193101	0.0
64.54	-0.127372	0.0
64.88	-0.290337	0.0
65.22	0.254709	0.0
65.56	0.0257883	0.0
65.9	0.104726	0.0
66.24	-0.0610152	0.0
66.58	-0.375799	0.0
66.92	-0.115662	0.0
67.26	-0.107008	0.0
67.6	0.316964	0.0
67.94	1.26973	0.0
68.28	-0.0526411	0.0
68.62	-0.031194	0.0
68.96	0.0406573	0.0
69.3	0.0527539	0.0
69.64	0.306843	0.0
69.98	-0.0945737	0.0
70.32	0.0651574	0.0
70.66	-0.203855	0.0
71.0	0.0111526	0.0
71.34	0.178471	0.0
71.68	-0.0742987	0.0
72.02	-0.182321	0.0
72.36	-0.0544	0.0
72.7	0.303311	0.0
73.04	-0.0185149	0.0
73.38	0.0956418	0.0
73.72	-0.165006	0.0
74.06	0.0303549	0.0
74.4	0.123061	0.0
74.74	0.0159246	0.0
75.08	-0.239372	0.0
75.42	0.0190029	0.0
75.76	0.0164048	0.0
76.1	-0.0883172	0.0
76.44	-0.094208	0.0
76.78	-0.0438727	0.0
77.12	2.28127	0.0
77.46	0.182995	0.0
77.8	-0.139594	0.0
78.14	0.0714946	0.0
78.48	0.00781129	0.0
78.82	-0.0975673	0.0
79.16	-0.00059422	0.0
79.5	0.0456655	0.0
79.84	-0.207186	0.0
80.18	0.284984	0.0
80.52	-0.0550824	0.0
80.86	0.0149769	0.0
81.2	-0.113009	0.0
81.54	0.0545154	0.0
81.88	0.421771	0.0
82.22	0.167953	0.0
82.56	0.0057123	0.0
82.9	-0.136231	0.0
83.24	0.0558804	0.0
83.58	-0.0132889	0.0
83.92	-0.00378875	0.0
84.26	-0.272148	0.0
84.6	0.0324692	0.0
84.94	-0.361073	0.0
85.28	-0.0925866	0.0
85.62	0.111218	0.0
85.96	0.0899647	0.0
86.3	0.699299	0.0
86.64	0.0205231	0.0
86.98	0.00448821	0.0
87.32	-0.261157	0.0
87.66	0.158251	0.0
88.0	-0.190049	0.0
88.34	0.0892734	0.0
88.68	-0.320198	0.0
89.02	-0.0430758	0.0
89.36	0.101558	0.0
89.7	0.111036	0.0
90.04	0.022278	0.0
90.38	-0.237061	0.0
90.72	-0.06191	0.0
91.06	-0.0897872	0.0
91.4	0.0749527	0.0
91.74	0.0759508	0.0
92.08	0.153773	0.0
92.42	0.0687263	0.0
92.76	-0.159194	0.0
93.1	-0.0744227	0.0
93.44	0.161875	0.0
93.78	-0.0279573	0.0
94.12	-0.242296	0.0
94.46	0.187639	0.0
94.8	0.28574	0.0
95.14	7.26161	0.0
95.48	0.0236257	0.0
95.82	0.108291	0.0
96.16	-0.0673874	0.0
96.5	0.0959394	0.0
96.84	0.208811	0.0
97.18	0.0263715	0.0
97.52	-0.0814365	0.0
97.86	0.165871	0.0
98.2	0.177271	0.0
98.54	0.258197	0.0
98.88	0.217949	0.0
99.22	-0.290608	0.0
99.56	0.0775212	0.0
99.9	-0.00675683	0.0
100.24	-0.100786	0.0
100.58	-0.0146134	0.0
100.92	0.0412777	0.0
101.26	-0.171911	0.0
101.6	-0.0698921	0.0
101.94	-0.0289074	0.0
102.28	-0.235413	0.0
102.62	0.10012	0.0
102.96	0.124317	0.0
103.3	-0.252934	0.0
103.64	-0.0358367	0.0
103.98	0.0616863	0.0
104.32	0.296054	0.0
104.66	-0.0070619	0.0
105.0	-0.268452	0.0
105.34	0.0495376	0.0
105.68	-0.0587951	0.0
106.02	-0.0593031	0.0
106.36	-0.27021	0.0
106.7	-0.132174	0.0
107.04	0.0449903	0.0
107.38	-0.196919	0.0
107.72	-0.167413	0.0
108.06	0.00956913	0.0
108.4	0.0426503	0.0
108.74	0.39251	0.0
109.08	0.136481	0.0
109.42	0.156784	0.0
109.76	0.0106165	0.0
110.1	0.146147	0.0
110.44	0.105146	0.0
110.78	-0.0294481	0.0
111.12	0.0155258	0.0
111.46	-0.0745195	0.0
111.8	0.184887	0.0
112.14	0.0350853	0.0
112.48	0.0679657	0.0
112.82	0.0352061	0.0
113.16	0.197626	0.0
113.5	0.886091	0.0
113.84	0.434691	0.0
114.18	0.0512392	0.0
114.52	0.0662081	0.0
114.86	0.280185	0.0
115.2	0.139336	0.0
115.54	0.00373035	0.0
115.88	-0.182799	0.0
116.22	0.105219	0.0
116.56	0.141638	0.0
116.9	0.192098	0.0
117.24	0.0655369	0.0
117.58	0.147568	0.0
117.92	0.251482	0.0
118.26	0.266033	0.0
118.6	0.764471	0.0
118.94	0.0567379	0.0
119.28	-0.173136	0.0
119.62	0.13425	0.0
119.96	-0.142982	0.0
119.99	0.199774	0.0